{
  "resourceType": "Bundle",
  "id": "patient-0985-bundle",
  "type": "collection",
  "timestamp": "2026-02-05T00:00:00Z",
  "entry": [
    {
  "fullUrl": "http://example.org/Patient/0985",
      "resource": {
        "resourceType": "Patient",
        "id": "0985",
        "meta": {
          "profile": [
            "http://hl7.org/fhir/us/mcode/StructureDefinition/mcode-cancer-patient",
            "http://hl7.org/fhir/us/core/StructureDefinition/us-core-patient"
          ]
        },
        "identifier": [
          {
            "system": "urn:oid:1.2.3.4.5.6.7",
            "value": "0985"
          }
        ],
        "name": [
          {
            "family": "Example",
            "given": ["Patient"]
          }
        ],
        "text": {
          "status": "generated",
          "div": "<div xmlns=\"http://www.w3.org/1999/xhtml\">Patient 0985 — synthetic sample patient</div>"
        },
        
        "gender": "female",
        "birthDate": "1960-01-01"
      }
    },

    {
      "fullUrl": "http://example.org/Condition/primary-cancer-0985",
      "resource": {
        "resourceType": "Condition",
        "id": "primary-cancer-0985",
        "meta": {
          "profile": [
            "http://hl7.org/fhir/us/mcode/StructureDefinition/mcode-primary-cancer-condition",
            "http://hl7.org/fhir/us/core/StructureDefinition/us-core-condition-problems-health-concerns"
          ]
        },
        "text": {
          "status": "generated",
          "div": "<div xmlns=\"http://www.w3.org/1999/xhtml\">Primary breast cancer — ICD-10-CM C50.1 (synthetic)</div>"
        },
        "clinicalStatus": {
          "coding": [
            {
              "system": "http://terminology.hl7.org/CodeSystem/condition-clinical",
              "code": "active"
            }
          ]
        },
        "verificationStatus": {
          "coding": [
            {
              "system": "http://terminology.hl7.org/CodeSystem/condition-ver-status",
              "code": "confirmed"
            }
          ]
        },
        "category": [
          {
            "coding": [
              {
                "system": "http://terminology.hl7.org/CodeSystem/condition-category",
                "code": "problem-list-item"
              }
            ]
          }
        ],
        "code": {
          "coding": [
            {
              "system": "http://hl7.org/fhir/sid/icd-10-cm",
              "code": "C50.1",
              "display": "Malignant neoplasm of central portion of breast"
            }
          ],
          "text": "Breast cancer (ICD-10-CM C50.1)"
        },
        "subject": { "reference": "Patient/0985" },
        "onsetDateTime": "2024-11-11"
      }
    },

    {
      "fullUrl": "http://example.org/Practitioner/physician-1",
      "resource": {
        "resourceType": "Practitioner",
        "id": "physician-1",
        "meta": {
          "profile": [
            "http://hl7.org/fhir/StructureDefinition/Practitioner",
            "http://hl7.org/fhir/us/core/StructureDefinition/us-core-practitioner"
          ]
        },
  "identifier": [ { "system": "urn:oid:1.2.3.4.5.9", "value": "phys-1" } ],
        "name": [
          {
            "family": "Oncologist",
            "given": ["Alice"]
          }
        ],
        "text": { "status": "generated", "div": "<div xmlns=\"http://www.w3.org/1999/xhtml\">Dr. Alice Oncologist</div>" }
      }
    },

    {
      "fullUrl": "http://example.org/Observation/stage-group-0985",
      "resource": {
        "resourceType": "Observation",
        "id": "stage-group-0985",
        "meta": {
          "profile": [
            "http://hl7.org/fhir/us/mcode/StructureDefinition/mcode-tnm-stage-group"
          ]
        },
        "status": "final",
  "text": { "status": "generated", "div": "<div xmlns=\"http://www.w3.org/1999/xhtml\">AJCC stage group: Stage I</div>" },
        "category": [ { "coding": [ { "system": "http://terminology.hl7.org/CodeSystem/observation-category", "code": "imaging" } ] } ],
        "code": {
          "coding": [ { "system": "http://loinc.org", "code": "21908-9", "display": "Stage group.clinical Cancer" } ],
          "text": "AJCC Stage Group"
        },
  "method": { "text": "AJCC clinical staging" },
        "performer": [ { "reference": "Practitioner/physician-1", "display": "Dr. Alice Oncologist" } ],
        "subject": { "reference": "Patient/0985" },
        "focus": [
          { "reference": "Condition/primary-cancer-0985" }
        ],
        "effectiveDateTime": "2024-11-11",
        "valueCodeableConcept": {
          "text": "Stage I"
        }
      }
    },

    {
      "fullUrl": "http://example.org/Observation/tumor-size-0985",
      "resource": {
        "resourceType": "Observation",
        "id": "tumor-size-0985",
        
        "status": "final",
        "category": [ { "coding": [ { "system": "http://terminology.hl7.org/CodeSystem/observation-category", "code": "exam", "display": "Exam" } ] } ],
        "code": {
          "coding": [ { "system": "http://loinc.org", "code": "21889-1", "display": "Size Tumor" } ],
          "text": "Tumor size"
        },
        "subject": { "reference": "Patient/0985" },
        "performer": [ { "reference": "Practitioner/physician-1", "display": "Dr. Alice Oncologist" } ],
        "focus": [ { "reference": "BodyStructure/tumor-0985" } ],
        "effectiveDateTime": "2024-11-11",
        "component": [
          {
            "code": {
              "coding": [ { "system": "http://loinc.org", "code": "21889-1", "display": "Size Tumor" } ],
              "text": "Tumor longest dimension"
            },
            "valueQuantity": {
              "value": 2.7,
              "unit": "cm",
              "system": "http://unitsofmeasure.org",
              "code": "cm"
            }
          }
        ]
      }
    },

    {
      "fullUrl": "http://example.org/Observation/histologic-grade-0985",
      "resource": {
        "resourceType": "Observation",
        "id": "histologic-grade-0985",
        "meta": {
          "profile": [
            "http://hl7.org/fhir/us/mcode/StructureDefinition/mcode-histologic-grade"
          ]
        },
        "status": "final",
  "text": { "status": "generated", "div": "<div xmlns=\"http://www.w3.org/1999/xhtml\">Histologic grade: Grade 2</div>" },
        "category": [ { "coding": [ { "system": "http://terminology.hl7.org/CodeSystem/observation-category", "code": "laboratory" } ] } ],
        "code": {
          "coding": [ { "system": "http://ncicb.nci.nih.gov/xml/owl/EVS/Thesaurus.owl", "code": "C18000", "display": "Histologic Grade" } ],
          "text": "Histologic grade"
        },
        "subject": { "reference": "Patient/0985" },
        "performer": [ { "reference": "Practitioner/physician-1", "display": "Dr. Alice Oncologist" } ],
        "focus": [ { "reference": "Condition/primary-cancer-0985" } ],
        "effectiveDateTime": "2024-11-11",
        "valueCodeableConcept": {
          "coding": [ { "system": "http://snomed.info/sct", "code": "255604002", "display": "Mild" } ],
          "text": "Grade 2"
        }
      }
    },

    {
      "fullUrl": "http://example.org/Observation/er-0985",

      "resource": {
        "resourceType": "Observation",
        "id": "er-0985",
        "meta": {
          "profile": [
            "http://hl7.org/fhir/us/mcode/StructureDefinition/mcode-tumor-marker-test"
          ]
        },
        "status": "final",
  "text": { "status": "generated", "div": "<div xmlns=\"http://www.w3.org/1999/xhtml\">Estrogen receptor: Positive</div>" },
        "category": [ { "coding": [ { "system": "http://terminology.hl7.org/CodeSystem/observation-category", "code": "laboratory", "display": "Laboratory" } ] } ],
        "code": {
          "coding": [ { "system": "http://loinc.org", "code": "16112-5", "display": "Estrogen receptor [Interpretation] in Tissue" } ],
          "text": "ER status"
        },
        "subject": { "reference": "Patient/0985" },
        "performer": [ { "reference": "Practitioner/physician-1", "display": "Dr. Alice Oncologist" } ],
        "focus": [
          { "reference": "Condition/primary-cancer-0985" }
        ],
        "effectiveDateTime": "2024-11-11",
        "valueCodeableConcept": {
          "coding": [ { "system": "http://snomed.info/sct", "code": "10828004", "display": "Positive" } ],
          "text": "Positive"
        }
      }
    },

    {
      "fullUrl": "http://example.org/Observation/pr-0985",
      "resource": {
        "resourceType": "Observation",
        "id": "pr-0985",
        "meta": {
          "profile": [
            "http://hl7.org/fhir/us/mcode/StructureDefinition/mcode-tumor-marker-test"
          ]
        },
        "status": "final",
  "text": { "status": "generated", "div": "<div xmlns=\"http://www.w3.org/1999/xhtml\">Progesterone receptor: Unknown</div>" },
        "category": [ { "coding": [ { "system": "http://terminology.hl7.org/CodeSystem/observation-category", "code": "laboratory", "display": "Laboratory" } ] } ],
        "code": {
          "coding": [ { "system": "http://loinc.org", "code": "16113-3", "display": "Progesterone receptor [Interpretation] in Tissue" } ],
          "text": "PR status"
        },
        "subject": { "reference": "Patient/0985" },
        "performer": [ { "reference": "Practitioner/physician-1", "display": "Dr. Alice Oncologist" } ],
        "focus": [
          { "reference": "Condition/primary-cancer-0985" }
        ],
        "effectiveDateTime": "2024-11-11",
        "valueCodeableConcept": {
          "text": "Unknown"
        }
      }
    },

    {
      "fullUrl": "http://example.org/Observation/her2-0985",
      "resource": {
        "resourceType": "Observation",
        "id": "her2-0985",
        "meta": {
          "profile": [
            "http://hl7.org/fhir/us/mcode/StructureDefinition/mcode-tumor-marker-test"
          ]
        },
        "status": "final",
  "text": { "status": "generated", "div": "<div xmlns=\"http://www.w3.org/1999/xhtml\">HER2: Negative</div>" },
        "category": [ { "coding": [ { "system": "http://terminology.hl7.org/CodeSystem/observation-category", "code": "laboratory", "display": "Laboratory" } ] } ],
        "code": {
          "coding": [ { "system": "http://loinc.org", "code": "48676-1", "display": "HER2 [Interpretation] in Tissue" } ],
          "text": "HER2 status"
        },
        "subject": { "reference": "Patient/0985" },
        "performer": [ { "reference": "Practitioner/physician-1", "display": "Dr. Alice Oncologist" } ],
        "focus": [
          { "reference": "Condition/primary-cancer-0985" }
        ],
        "effectiveDateTime": "2024-11-11",
        "valueCodeableConcept": {
          "coding": [ { "system": "http://snomed.info/sct", "code": "260385009", "display": "Negative" } ],
          "text": "Negative"
        }
      }
    },

    {
      "fullUrl": "http://example.org/Procedure/surgery-0985",
      "resource": {
        "resourceType": "Procedure",
        "id": "surgery-0985",
        "meta": {
          "profile": [
            "http://hl7.org/fhir/us/mcode/StructureDefinition/mcode-cancer-related-surgical-procedure"
          ]
        },
        "status": "completed",
        "code": {
          "text": "Breast cancer surgery"
        },
        "subject": { "reference": "Patient/0985" },
        "reasonReference": [
          { "reference": "Condition/primary-cancer-0985" }
        ],
        "text": { "status": "generated", "div": "<div xmlns=\"http://www.w3.org/1999/xhtml\">Mastectomy performed 2024-12-11</div>" },
        "performedDateTime": "2024-12-11"
      }
    },

    {
      "fullUrl": "http://example.org/MedicationRequest/chemo-0985",
      "resource": {
        "resourceType": "MedicationRequest",
        "id": "chemo-0985",
        "meta": {
          "profile": [
            "http://hl7.org/fhir/us/mcode/StructureDefinition/mcode-cancer-related-medication-request"
          ]
        },
        "status": "completed",
        "intent": "order",
  "text": { "status": "generated", "div": "<div xmlns=\"http://www.w3.org/1999/xhtml\">Chemotherapy order (placeholder)</div>" },
        "medicationCodeableConcept": {
          "text": "Chemotherapy (regimen placeholder; registry extract does not include agent-level details)"
        },
        "subject": { "reference": "Patient/0985" },
        "requester": { "reference": "Practitioner/physician-1", "display": "Dr. Alice Oncologist" },
        "reasonReference": [
          { "reference": "Condition/primary-cancer-0985" }
        ],
        "authoredOn": "2024-11-11"
      }
    },

    {
      "fullUrl": "http://example.org/MedicationRequest/hormone-0985",
      "resource": {
        "resourceType": "MedicationRequest",
        "id": "hormone-0985",
        "meta": {
          "profile": [
            "http://hl7.org/fhir/us/mcode/StructureDefinition/mcode-cancer-related-medication-request"
          ]
        },
        "status": "completed",
        "intent": "order",
  "text": { "status": "generated", "div": "<div xmlns=\"http://www.w3.org/1999/xhtml\">Hormone therapy order (placeholder)</div>" },
        "medicationCodeableConcept": {
          "text": "Hormone therapy / endocrine therapy (agent placeholder; registry extract does not include agent-level details)"
        },
        "subject": { "reference": "Patient/0985" },
        "requester": { "reference": "Practitioner/physician-1", "display": "Dr. Alice Oncologist" },
        "reasonReference": [
          { "reference": "Condition/primary-cancer-0985" }
        ],
        "authoredOn": "2024-11-11"
      }
    },

    {
      "fullUrl": "http://example.org/Observation/disease-status-0985",
      "resource": {
        "resourceType": "Observation",
        "id": "disease-status-0985",
        "meta": {
          "profile": [
            "http://hl7.org/fhir/us/mcode/StructureDefinition/mcode-cancer-disease-status"
          ]
        },
        "status": "final",
  "text": { "status": "generated", "div": "<div xmlns=\"http://www.w3.org/1999/xhtml\">Disease status: Persistent disease</div>" },
        "category": [ { "coding": [ { "system": "http://terminology.hl7.org/CodeSystem/observation-category", "code": "imaging", "display": "Imaging" } ] } ],
        "code": {
          "coding": [ { "system": "http://loinc.org", "code": "97509-4", "display": "Cancer disease progression" } ],
          "text": "Cancer disease status"
        },
        "subject": { "reference": "Patient/0985" },
        "performer": [ { "reference": "Practitioner/physician-1", "display": "Dr. Alice Oncologist" } ],
        "focus": [ { "reference": "Condition/primary-cancer-0985" } ],
        "effectiveDateTime": "2025-02-11",
        "valueCodeableConcept": {
          "text": "Disease stable"
        }
      }
    }
    ,
    {
      "fullUrl": "http://example.org/BodyStructure/tumor-0985",
      "resource": {
        "resourceType": "BodyStructure",
        "id": "tumor-0985",
        "text": { "status": "generated", "div": "<div xmlns=\"http://www.w3.org/1999/xhtml\">Tumor body structure for patient 0985 (synthetic)</div>" },
        "patient": { "reference": "Patient/0985" },
        "location": {
          "text": "Left breast"
        }
      }
    }
  ]
}
